File: exp_xaslib/raw/Cu metal.xdi
#XDI/1.0  XASDataLibrary/1.0
# Column.1: energy eV
# Column.2: i0
# Column.3: itrans
# Mono.d_spacing: 3.134770
# Mono.name: None
# Beamline.name: APS 13-ID-E
# Element.symbol: Cu
# Element.edge: K
# Data.upload_date: 2020-05-17 13:26:30
# Data.submitted_by: Matt Newville
# Sample.name: Cu
# Sample.formula: Cu
# Sample.preparation: metal foil
# Sample.notes: sample for 'Cu_Foil_rt_2016Foils_13IDE_01.xdi', uploaded 2020-05-07 19:57:14, {"temperature": "room temperature"}
# Reference.mode: no reference spectra
# ///
#
#-----------------------
#   energy         i0            itrans
 8929   42443   120836
 8934   55893   159248
 8939   59961   170877
 8944   61966   176619
 8949   61851   176230
 8954   60512   172188
 8959   60110   170604
 8964   60865   171908
 8969   61731   172558
 8974   61706   167755
 8974.1   61165   166127
 8974.2   60712   164718
 8974.3   59226   160522
 8974.4   57857   156632
 8974.5   57316   154976
 8974.6   56994   153909
 8974.7   56750   153046
 8974.8   56709   152723
 8974.9   56489   151941
 8975   56547   151892
 8975.1   56434   151395
 8975.2   56233   150623
 8975.3   56045   149868
 8975.4   56091   149759
 8975.5   55890   148957
 8975.6   55836   148559
 8975.7   55831   148270
 8975.8   55980   148374
 8975.9   56003   148146
 8976   55935   147679
 8976.1   55995   147504
 8976.2   56081   147415
 8976.3   56074   147048
 8976.4   56435   147638
 8976.5   56480   147340
 8976.6   56571   147170
 8976.7   56627   146876
 8976.8   56505   146102
 8976.9   56592   145849
 8977   56576   145317
 8977.1   56653   144983
 8977.2   56655   144426
 8977.3   56694   143900
 8977.4   56693   143283
 8977.5   56790   142847
 8977.6   56809   142156
 8977.7   56929   141669
 8977.8   56901   140751
 8977.9   56928   139921
 8978   56798   138672
 8978.1   56735   137467
 8978.2   56740   136336
 8978.3   56472   134462
 8978.4   56469   133111
 8978.5   55886   130302
 8978.6   55753   128414
 8978.7   55890   127020
 8978.8   55927   125185
 8978.9   55914   123207
 8979   56031   121164
 8979.1   56064   118728
 8979.2   56134   116111
 8979.3   56189   113184
 8979.4   56261   109987
 8979.5   56208   106300
 8979.6   56269   102547
 8979.7   56309   98495
 8979.8   56391   94618
 8979.9   56438   90227
 8980   56525   85812
 8980.1   56610   81380
 8980.2   56656   76900
 8980.3   56460   72222
 8980.4   56527   68196
 8980.5   56616   64344
 8980.6   56542   60728
 8980.7   56564   57400
 8980.8   56618   54418
 8980.9   56694   51829
 8981   56631   49490
 8981.1   56614   47523
 8981.2   56532   45802
 8981.3   56556   44436
 8981.4   56525   43245
 8981.5   56634   42384
 8981.6   56550   41482
 8981.7   56112   40484
 8981.8   56073   39887
 8981.9   56134   39465
 8982   56014   39025
 8982.1   56076   38794
 8982.2   56145   38645
 8982.3   56148   38537
 8982.4   56180   38504
 8982.5   56272   38589
 8982.6   56360   38721
 8982.7   56383   38873
 8982.8   56189   38918
 8982.9   56182   39140
 8983   56242   39442
 8983.1   56123   39626
 8983.2   56232   40018
 8983.3   56292   40381
 8983.4   56253   40678
 8983.5   56344   41074
 8983.6   56398   41430
 8983.7   56453   41758
 8983.8   56298   41908
 8983.9   56425   42235
 8984   56276   42312
 8984.1   56324   42485
 8984.2   56378   42616
 8984.3   56485   42716
 8984.4   56559   42740
 8984.5   56109   42302
 8984.6   55883   41983
 8984.7   55883   41762
 8984.8   55935   41535
 8984.9   56033   41281
 8985   56082   40942
 8985.1   56090   40533
 8985.2   56220   40182
 8985.3   56278   39776
 8985.4   56341   39321
 8985.5   56418   38871
 8985.6   56500   38423
 8985.7   56403   37848
 8985.8   55770   36927
 8985.9   55892   36531
 8986   55972   36141
 8986.1   56018   35719
 8986.2   55954   35240
 8986.3   56106   34928
 8986.4   56101   34527
 8986.5   56186   34190
 8986.6   56227   33858
 8986.7   56278   33562
 8986.8   56367   33274
 8986.9   56393   32943
 8987   56482   32662
 8987.1   56579   32386
 8987.2   56563   32040
 8987.3   56458   31639
 8987.4   56489   31333
 8987.5   56604   31052
 8987.6   56594   30687
 8987.7   56593   30320
 8987.8   56668   29981
 8987.9   56352   29437
 8988   56343   29040
 8988.1   56392   28688
 8988.2   56469   28323
 8988.3   56506   27921
 8988.4   56552   27523
 8988.5   56490   27061
 8988.6   56551   26641
 8988.7   56572   26229
 8988.8   56653   25809
 8988.9   56666   25336
 8989   56583   24827
 8989.63   56624   21848
 8990.27   56897   18832
 8990.94   56763   15760
 8991.63   56966   13129
 8992.33   56884   10941
 8993.05   56842   9310
 8993.8   57305   8280
 8994.56   57320   7784
 8995.34   57223   7879
 8996.14   57421   8446
 8996.96   57578   9219
 8997.8   57475   9974
 8998.66   57550   10598
 8999.53   57278   10802
 9000.43   56053   10304
 9001.34   57565   9740
 9002.28   57921   8667
 9003.23   58082   7776
 9004.2   58152   7532
 9005.19   58118   7974
 9006.21   58148   8822
 9007.24   56970   9481
 9008.28   58232   10359
 9009.35   58518   11032
 9010.44   56962   11413
 9011.55   58423   12236
 9012.67   58624   12419
 9013.82   58784   12322
 9014.98   58719   12069
 9016.16   58600   11687
 9017.36   57489   10966
 9018.59   58789   10576
 9019.83   58711   9909
 9021.09   58865   9350
 9022.36   58802   8816
 9023.66   58650   8308
 9024.98   59157   7975
 9026.31   59115   7763
 9027.67   59393   7900
 9029.04   59138   8274
 9030.44   59205   8875
 9031.85   59070   9539
 9033.28   59464   10263
 9034.73   59101   10687
 9036.2   59120   10984
 9037.69   59327   11133
 9039.2   59524   11099
 9040.72   60089   10991
 9042.27   60506   10842
 9043.84   60663   10779
 9045.42   60150   10768
 9047.02   60179   10848
 9048.65   59602   10623
 9050.29   60240   10473
 9051.95   60545   10300
 9053.63   59830   10121
 9055.33   59206   10025
 9057.05   59796   10024
 9058.79   58097   9487
 9060.54   56877   8978
 9062.32   57003   8757
 9064.11   56277   8479
 9065.93   55210   8157
 9067.76   55579   8013
 9069.61   54400   7593
 9071.48   54529   7379
 9073.38   55128   7366
 9075.29   54772   7426
 9077.21   54965   7746
 9079.16   55082   8203
 9081.13   56115   8837
 9083.12   55857   9221
 9085.12   56280   9693
 9087.15   56792   10119
 9089.19   57238   10372
 9091.25   57188   10545
 9093.33   57270   10953
 9095.43   58385   11694
 9097.56   58579   12194
 9099.69   58907   12460
 9101.85   59421   12436
 9104.03   59552   12078
 9106.23   59919   11630
 9108.44   59958   11134
 9110.68   60207   10779
 9112.93   60406   10550
 9115.21   60563   10474
 9117.5   60712   10518
 9119.81   60599   10514
 9122.14   60670   10372
 9124.49   60875   9966
 9126.86   61056   9321
 9129.25   61200   8704
 9131.65   61085   8342
 9134.08   60898   8279
 9136.52   60044   8306
 9138.99   59650   8476
 9141.47   59877   8818
 9143.98   59541   9225
 9146.5   58444   9670
 9149.04   58103   10357
 9151.6   57903   11160
 9154.18   57791   12041
 9156.78   57588   12821
 9159.39   57329   13278
 9162.03   54922   12720
 9164.69   57773   12901
 9167.36   55659   11692
 9170.06   58044   11423
 9172.77   58790   11017
 9175.5   58411   10652
 9178.25   58492   10578
 9181.02   57208   10410
 9183.81   57358   10554
 9186.62   57215   10608
 9189.45   57670   10734
 9192.3   57574   10790
 9195.16   57869   10990
 9198.05   58373   11196
 9200.95   57795   10952
 9203.88   57989   10582
 9206.82   58106   10131
 9209.78   57823   9823
 9212.76   57617   9751
 9215.76   57869   9865
 9218.78   57883   10038
 9221.82   58112   10374
 9224.88   58745   10930
 9227.95   59120   11552
 9231.05   59058   12097
 9234.17   59009   12600
 9237.3   59218   13015
 9240.45   59239   13184
 9243.62   59122   13131
 9246.82   58317   12856
 9250.03   58054   12759
 9253.26   58706   12891
 9256.51   58787   12867
 9259.77   58702   12797
 9263.06   57726   12502
 9266.37   56291   12066
 9269.69   56043   11872
 9273.04   56585   11874
 9276.4   57106   11903
 9279.78   57275   11889
 9283.18   57902   11975
 9286.61   57907   11931
 9290.05   58506   12016
 9293.51   58714   12028
 9296.98   58934   12053
 9300.48   58485   12019
 9304   58574   12205
 9307.53   59183   12559
 9311.09   58940   12755
 9314.66   59058   13041
 9318.26   58991   13270
 9321.87   59021   13445
 9325.5   58992   13507
 9329.15   58900   13526
 9332.82   58826   13597
 9336.51   58881   13788
 9340.22   58747   13998
 9343.94   58772   14220
 9347.69   58258   14149
 9351.45   58557   14184
 9355.24   57679   13967
 9359.04   57818   14002
 9362.87   57067   13792
 9366.71   56672   13669
 9370.57   56734   13656
 9374.45   57423   13795
 9378.35   57067   13688
 9382.27   57617   13798
 9386.2   57235   13700
 9390.16   57524   13779
 9394.14   58002   13912
 9398.13   57002   13704
 9402.14   57478   13893
 9406.18   56689   13828
 9410.23   55397   13674
 9414.3   56122   14048
 9418.39   56675   14374
 9422.5   56311   14425
 9426.63   53219   13723
 9430.78   54237   14044
 9434.95   54916   14266
 9439.13   56005   14617
 9443.34   56788   14910
 9447.56   55171   14605
 9451.81   55861   14927
 9456.07   55873   15055
 9460.35   56686   15357
 9464.65   57386   15615
 9468.97   56921   15564
 9473.31   57124   15700
 9477.67   57017   15722
 9482.05   57401   15856
 9486.44   57315   15845
 9490.86   57445   15879
 9495.29   57314   15841
 9499.75   57477   15888
 9504.22   56530   15633
 9508.71   55945   15493
 9513.22   56416   15678
 9517.75   56279   15730
 9522.3   55735   15704
 9526.87   54185   15420
 9531.46   53212   15280
 9536.07   54162   15667
 9540.69   53422   15545
 9545.34   54457   15934
 9550   54247   15956
 9554.69   54848   16211
 9559.39   55412   16455
 9564.11   54255   16196
 9568.85   54388   16315
 9573.61   55165   16634
 9578.39   54541   16533
 9583.19   54688   16672
 9588.01   55183   16912
 9592.84   54451   16759
 9597.7   52629   16270
 9602.57   52441   16271
 9607.47   53116   16530
 9612.38   54252   16938
 9617.31   54920   17198
 9622.27   52614   16532
 9627.24   52187   16453
 9632.23   51804   16391
 9637.23   51263   16287
 9642.26   51993   16595
 9647.31   52402   16808
 9652.38   53907   17375
 9657.46   54400   17622
 9662.57   54278   17688
 9667.69   54270   17792
 9672.83   54321   17905
 9677.99   54139   17937
 9683.17   53888   17957
 9688.37   53243   17844
 9693.59   51774   17455
 9698.83   49633   16828
 9704.09   50823   17304
 9709.37   50820   17393
 9714.66   50485   17372
 9719.98   49571   17145
 9725.31   49526   17216
 9730.66   50965   17795
 9736.04   50337   17658
 9741.43   51346   18080
 9746.84   50135   17724
 9752.27   50240   17833
 9757.72   50468   17980
 9763.18   51281   18344
 9768.67   51877   18635
 9774.18   52606   18972
 9779.7   52579   19040
 9785.25   50771   18506
 9790.81   50161   18363
 9796.39   50386   18529
 9801.99   48192   17817
 9807.62   45427   16876
 9813.26   45921   17143
 9818.91   46835   17566
 9824.59   47709   17983
 9830.29   48575   18394
 9836.01   49373   18784
 9841.74   50046   19129
 9847.5   50956   19569
 9853.27   50073   19333
 9859.06   50359   19543
 9864.88   50781   19797
 9870.71   50272   19703
 9876.56   50523   19896
 9882.43   48100   19051
 9888.32   45466   18104
 9894.22   45550   18219
 9900.15   45597   18323
 9906.1   46049   18586
 9912.06   45722   18533
 9918.05   45873   18680
 9924.05   46420   18982
 9930.07   47715   19595
 9936.12   48644   20060
 9942.18   49467   20484
 9948.26   47758   19892
 9954.36   48143   20143