File: exp_xaslib/raw/Fe metal.xdi
#XDI/1.0  XASDataLibrary/1.0
# Column.1: energy eV
# Column.2: i0
# Column.3: itrans
# Mono.d_spacing: 3.134770
# Mono.name: None
# Beamline.name: APS 13-ID-E
# Element.symbol: Fe
# Element.edge: K
# Data.upload_date: 2020-05-17 07:45:22
# Data.submitted_by: Matt Newville
# Sample.name: Fe foil  Room Temperature
# Sample.formula: Fe
# Sample.preparation: foil
# Sample.notes: sample for 'Fe_metal_rt_02.xdi', uploaded 2020-05-07 19:57:17, {"reference": "none", "temperature": "Room Temperature"}
# Reference.mode: no reference spectra
# ///
#
#-----------------------
#   energy         i0            itrans
 7062   43955   86833
 7067   44544   88153
 7072   44476   88157
 7077   43744   86823
 7082   43806   87045
 7087   44879   89210
 7092   43715   86846
 7097   46228   91624
 7102   48262   94989
 7107   47288   90688
 7107.1   39657   75968
 7107.2   39269   75133
 7107.3   38930   74396
 7107.4   38389   73254
 7107.5   38763   73877
 7107.6   38691   73626
 7107.7   38959   74016
 7107.8   38941   73864
 7107.9   39376   74564
 7108   39459   74573
 7108.1   39630   74754
 7108.2   39569   74471
 7108.3   39579   74322
 7108.4   39787   74515
 7108.5   39648   74057
 7108.6   39967   74438
 7108.7   40016   74290
 7108.8   40267   74499
 7108.9   40417   74500
 7109   40319   73998
 7109.1   40398   73823
 7109.2   40472   73577
 7109.3   40383   73011
 7109.4   40370   72508
 7109.5   40473   72159
 7109.6   40832   72212
 7109.7   40585   71084
 7109.8   40876   70843
 7109.9   41058   70257
 7110   41087   69319
 7110.1   41444   68776
 7110.2   41558   67664
 7110.3   41608   66377
 7110.4   41521   64693
 7110.5   41543   63152
 7110.6   41416   61257
 7110.7   41544   59694
 7110.8   41250   57589
 7110.9   41588   56301
 7111   41600   54692
 7111.1   41732   53250
 7111.2   41991   52071
 7111.3   40831   49311
 7111.4   40774   47981
 7111.5   41103   47254
 7111.6   41120   46234
 7111.7   41167   45363
 7111.8   41557   44933
 7111.9   41486   44060
 7112   41537   43414
 7112.1   41873   43098
 7112.2   41632   42233
 7112.3   41740   41738
 7112.4   41969   41410
 7112.5   41999   40891
 7112.6   41992   40352
 7112.7   42265   40104
 7112.8   42205   39540
 7112.9   42713   39530
 7113   42836   39158
 7113.1   42927   38785
 7113.2   42973   38359
 7113.3   43042   37967
 7113.4   43318   37786
 7113.5   43473   37493
 7113.6   43405   37051
 7113.7   43083   36403
 7113.8   43459   36377
 7113.9   43453   36039
 7114   43541   35809
 7114.1   43780   35727
 7114.2   43752   35445
 7114.3   43542   35046
 7114.4   43064   34451
 7114.5   43275   34437
 7114.6   43463   34417
 7114.7   43277   34119
 7114.8   43318   34013
 7114.9   43557   34089
 7115   43559   33990
 7115.1   43662   33969
 7115.2   43797   33998
 7115.3   43868   33976
 7115.4   43757   33814
 7115.5   43904   33852
 7115.6   43867   33745
 7115.7   43940   33725
 7115.8   44255   33878
 7115.9   44428   33915
 7116   44604   33931
 7116.1   44657   33838
 7116.2   44471   33541
 7116.3   44643   33493
 7116.4   44354   33060
 7116.5   44468   32905
 7116.6   44540   32680
 7116.7   44776   32547
 7116.8   44922   32304
 7116.9   44204   31422
 7117   44230   31032
 7117.1   44364   30707
 7117.2   44567   30386
 7117.3   44806   30081
 7117.4   44885   29628
 7117.5   45009   29214
 7117.6   45184   28797
 7117.7   45287   28345
 7117.8   45409   27888
 7117.9   45691   27541
 7118   45044   26626
 7118.1   45208   26200
 7118.2   45323   25757
 7118.3   45421   25298
 7118.4   45511   24853
 7118.5   45822   24519
 7118.6   45931   24090
 7118.7   46074   23676
 7118.8   46165   23256
 7118.9   46350   22856
 7119   46121   22279
 7119.1   46282   21878
 7119.2   46361   21469
 7119.3   46101   20885
 7119.4   45644   20244
 7119.5   45880   19899
 7119.6   45894   19476
 7119.7   45933   19051
 7119.8   46195   18744
 7119.9   46358   18389
 7120   46400   18009
 7120.1   46592   17683
 7120.2   46667   17336
 7120.3   46809   17013
 7120.4   47016   16742
 7120.5   47153   16444
 7120.6   47351   16196
 7120.7   47473   15918
 7120.8   47276   15553
 7120.9   47347   15286
 7121   46691   14813
 7121.1   46557   14511
 7121.2   46751   14333
 7121.3   47014   14181
 7121.4   47109   13990
 7121.5   47203   13800
 7121.6   47408   13660
 7121.7   47271   13423
 7121.8   47339   13256
 7121.9   47408   13092
 7122   47193   12863
 7122.63   48156   12167
 7123.27   48883   11552
 7123.94   49134   10934
 7124.63   49270   10368
 7125.33   49401   9838
 7126.05   49678   9317
 7126.8   50814   8877
 7127.56   50612   8107
 7128.34   50829   7352
 7129.14   50620   6628
 7129.96   51792   6309
 7130.8   51903   6253
 7131.66   53247   6804
 7132.53   52748   7414
 7133.43   53851   8320
 7134.34   54053   8983
 7135.28   54397   9448
 7136.23   55086   9722
 7137.2   55435   9684
 7138.19   55817   9453
 7139.21   56123   9149
 7140.24   56809   8997
 7141.28   56678   8904
 7142.35   58266   9243
 7143.44   57919   9318
 7144.55   58680   9452
 7145.67   59132   9310
 7146.82   59041   8880
 7147.98   59326   8459
 7149.16   59378   8123
 7150.36   59309   7917
 7151.59   59283   7779
 7152.83   58829   7637
 7154.09   59057   7690
 7155.36   59691   7877
 7156.66   59978   8022
 7157.98   58063   7817
 7159.31   58375   7871
 7160.67   57777   7822
 7162.04   57156   7823
 7163.44   56966   7916
 7164.85   57131   8054
 7166.28   57260   8157
 7167.73   57079   8201
 7169.2   54140   7871
 7170.69   54832   8126
 7172.2   53004   8096
 7173.72   52223   8286
 7175.27   50908   8434
 7176.84   50873   8788
 7178.42   49679   8852
 7180.02   49140   8865
 7181.65   48780   8767
 7183.29   48978   8693
 7184.95   50136   8677
 7186.63   49348   8226
 7188.33   50339   8047
 7190.05   50421   7705
 7191.79   50625   7388
 7193.54   50247   7140
 7195.32   51037   7295
 7197.11   51373   7580
 7198.93   51555   7974
 7200.76   52294   8550
 7202.61   52845   9178
 7204.48   52190   9615
 7206.38   53360   10206
 7208.29   54003   10278
 7210.21   54352   9729
 7212.16   54096   8643
 7214.13   54217   7537
 7216.12   54279   6630
 7218.12   54316   6054
 7220.15   54057   5804
 7222.19   53681   5918
 7224.25   54621   6523
 7226.33   54563   7254
 7228.43   54704   8163
 7230.56   54575   9110
 7232.69   55572   10232
 7234.85   53881   10648
 7237.03   53228   10912
 7239.23   55372   11415
 7241.44   57349   11587
 7243.68   59056   11498
 7245.93   56710   10626
 7248.21   56468   10329
 7250.5   52677   9633
 7252.81   52114   9713
 7255.14   51554   9818
 7257.49   48700   9298
 7259.86   48684   9129
 7262.25   47987   8788
 7264.65   46850   8428
 7267.08   48595   8586
 7269.52   50031   8566
 7271.99   50987   8361
 7274.47   51881   8239
 7276.98   53543   8371
 7279.5   53843   8267
 7282.04   55840   8342
 7284.6   57222   8295
 7287.18   58672   8337
 7289.78   59245   8516
 7292.39   60919   9238
 7295.03   61828   10113
 7297.69   62486   11003
 7300.36   63000   11799
 7303.06   63844   12530
 7305.77   63703   12906
 7308.5   62586   12886
 7311.25   60274   12432
 7314.02   63153   13004
 7316.81   63085   13018
 7319.62   64269   13312
 7322.45   63723   13236
 7325.3   59792   12437
 7328.16   60137   12533
 7331.05   54133   11397
 7333.95   52758   11311
 7336.88   54496   11846
 7339.82   55383   12034
 7342.78   56267   11976
 7345.76   56801   11630
 7348.76   58639   11493
 7351.78   61971   11675
 7354.82   58116   10581
 7357.88   57472   10151
 7360.95   57083   9833
 7364.05   57166   9713
 7367.17   56373   9604
 7370.3   57378   10006
 7373.45   57882   10577
 7376.62   60061   11769
 7379.82   58641   12461
 7383.03   61521   13969
 7386.26   61306   14381
 7389.51   62119   14615
 7392.77   59234   13769
 7396.06   57203   13126
 7399.37   55359   12656
 7402.69   56175   12874
 7406.04   54491   12500
 7409.4   53412   12233
 7412.78   52872   12088
 7416.18   53829   12321
 7419.61   54933   12657
 7423.05   53143   12423
 7426.51   54388   12901
 7429.98   51556   12266
 7433.48   53874   12783
 7437   55845   13143
 7440.53   57944   13391
 7444.09   59808   13501
 7447.66   61619   13636
 7451.26   60119   13183
 7454.87   63474   13925
 7458.5   65229   14370
 7462.15   65312   14517
 7465.82   65677   14860
 7469.51   64608   14985
 7473.22   67479   16054
 7476.94   68240   16564
 7480.69   70822   17477
 7484.45   61905   15572
 7488.24   55530   14275
 7492.04   55726   14584
 7495.87   55435   14634
 7499.71   56018   14774
 7503.57   57709   15153
 7507.45   58734   15384
 7511.35   58760   15427
 7515.27   59493   15710
 7519.2   60850   16156
 7523.16   64488   17172
 7527.14   63199   16829
 7531.13   62955   16747
 7535.14   61889   16486
 7539.18   61506   16468
 7543.23   63659   17148
 7547.3   64114   17354
 7551.39   66091   17911
 7555.5   64198   17318
 7559.63   62388   16711
 7563.78   60631   16186
 7567.95   63185   16928
 7572.13   66755   18081
 7576.34   60634   16697
 7580.56   56697   15906
 7584.81   57610   16411
 7589.07   62207   17901
 7593.35   62719   18152
 7597.65   64427   18695
 7601.97   65854   19172
 7606.31   67224   19702
 7610.67   67267   19901
 7615.05   68297   20378
 7619.44   67888   20323
 7623.86   68750   20585
 7628.29   69181   20748
 7632.75   69142   20865
 7637.22   69798   21270
 7641.71   70484   21706
 7646.22   65915   20486
 7650.75   66674   20856
 7655.3   64555   20284
 7659.87   61586   19409
 7664.46   62437   19692
 7669.07   62623   19746
 7673.69   62542   19713
 7678.34   62630   19741
 7683   64523   20371
 7687.69   64410   20440
 7692.39   66269   21193
 7697.11   67875   21884
 7701.85   69592   22602
 7706.61   65573   21452
 7711.39   65175   21498
 7716.19   60437   20113
 7721.01   61467   20621
 7725.84   60937   20565
 7730.7   60273   20438
 7735.57   61592   20977
 7740.47   62722   21469
 7745.38   64388   22161
 7750.31   66462   22983
 7755.27   66988   23272
 7760.24   68504   23947
 7765.23   70308   24761
 7770.23   71077   25221
 7775.26   73454   26252
 7780.31   75380   27101
 7785.38   71943   26006
 7790.46   73466   26700
 7795.57   69844   25498
 7800.69   70182   25724
 7805.83   66732   24546
 7810.99   68303   25218
 7816.17   69866   25901
 7821.37   71335   26577
 7826.59   72494   27134
 7831.83   65208   24510
 7837.09   64875   24503
 7842.37   65353   24814
 7847.66   66758   25489
 7852.98   67479   25914
 7858.31   67244   25976
 7863.66   65178   25350
 7869.04   63411   24827
 7874.43   62050   24453
 7879.84   60578   24028
 7885.27   59752   23851
 7890.72   62565   25124
 7896.18   66435   26833
 7901.67   68979   28035
 7907.18   70564   28852
 7912.7   69338   28503
 7918.25   69946   28907
 7923.81   70681   29379
 7929.39   71339   29821
 7934.99   70656   29675
 7940.62   67594   28512
 7946.26   73245   31033
 7951.91   70998   30217
 7957.59   71863   30747
 7963.29   66248   28481
 7969.01   66282   28636
 7974.74   62434   27094
 7980.5   63764   27793
 7986.27   64317   28186
 7992.06   64719   28524
 7997.88   65379   28981
 8003.71   65881   29358
 8009.56   67148   30085
 8015.43   65741   29627
 8021.32   66943   30342
 8027.22   66664   30386
 8033.15   68532   31423
 8039.1   68238   31474
 8045.06   63511   29459
 8051.05   64336   30024
 8063.07   61151   28886
 8069.12   63854   30341
 8075.18   66824   31945
 8081.26   68680   33024