File: exp_xaslib/raw/Mo metal.xdi
#XDI/1.0  XASDataLibrary/1.0
# Column.1: energy eV
# Column.2: i0
# Column.3: itrans
# Mono.d_spacing: 3.134770
# Mono.name: None
# Beamline.name: APS 13-ID-E
# Element.symbol: Mo
# Element.edge: K
# Data.upload_date: 2020-05-17 13:40:13
# Data.submitted_by: Matt Newville
# Sample.name: Mo foil
# Sample.formula: Mo
# Sample.preparation: foil from standard foil box
# Reference.mode: no reference spectra
# ///
#
#-----------------------
#   energy         i0            itrans
 19950   14318   60410
 19955   14235   59920
 19960   14211   59634
 19965   14145   59135
 19970   14166   58938
 19975   14144   58486
 19980   14127   57908
 19985   14121   57109
 19990   14111   55718
 19990.2   14122   55682
 19990.4   14129   55640
 19990.6   14152   55638
 19990.8   14158   55572
 19991   14160   55505
 19991.2   14139   55325
 19991.4   14145   55262
 19991.6   14165   55242
 19991.8   14164   55136
 19992   14186   55109
 19992.2   14180   54976
 19992.4   14180   54862
 19992.6   14163   54670
 19992.8   14165   54576
 19993   14141   54341
 19993.2   14107   54091
 19993.4   14137   54044
 19993.6   14141   53920
 19993.8   14134   53729
 19994   14132   53556
 19994.2   14125   53358
 19994.4   14149   53277
 19994.6   14167   53138
 19994.8   14171   52958
 19995   14161   52704
 19995.2   14128   52351
 19995.4   14140   52165
 19995.6   14127   51846
 19995.8   14141   51654
 19996   14135   51328
 19996.2   14120   50995
 19996.4   14110   50603
 19996.6   14115   50317
 19996.8   14119   49913
 19997   14116   49549
 19997.2   14115   49067
 19997.4   14103   48607
 19997.6   14075   47994
 19997.8   14080   47511
 19998   14089   47024
 19998.2   14088   46403
 19998.4   14083   45782
 19998.6   14073   45061
 19998.8   14078   44431
 19999   14096   43743
 19999.2   14099   43067
 19999.4   14075   42176
 19999.6   14078   41478
 19999.8   14073   40643
 20000   14073   39936
 20000.2   14054   39073
 20000.4   14035   38336
 20000.6   13865   37111
 20001   14111   37111
 20001.2   14088   35734
 20001.4   14074   35140
 20001.6   14080   34540
 20001.8   14044   33918
 20002   14056   33394
 20002.2   14078   32967
 20002.4   14087   32469
 20002.6   14093   32066
 20002.8   14083   31571
 20003   14082   31144
 20003.2   14086   30697
 20003.4   14090   30324
 20003.6   14065   29875
 20003.8   14044   29397
 20004   14035   29012
 20004.2   14053   28605
 20004.4   14055   28234
 20004.6   14058   27822
 20004.8   14035   27415
 20005   14030   26983
 20005.2   14057   26672
 20005.4   14031   26208
 20005.6   14014   25820
 20005.8   14008   25417
 20006   14014   25074
 20006.2   14027   24757
 20006.4   14017   24355
 20006.6   14029   24040
 20006.8   14010   23649
 20007   13998   23307
 20007.2   13985   22934
 20007.4   14001   22661
 20007.6   13989   22297
 20007.8   13968   21958
 20008   13998   21666
 20008.2   14007   21380
 20008.4   13981   21006
 20008.6   14003   20737
 20008.8   14020   20466
 20009   13995   20071
 20009.2   13993   19755
 20009.4   13976   19363
 20009.6   13990   19049
 20009.8   13988   18661
 20010   13987   18330
 20010.2   13982   17922
 20010.4   13977   17559
 20010.6   13981   17145
 20010.8   13982   16784
 20011   13990   16425
 20011.2   13999   16023
 20011.4   13968   15614
 20011.6   13956   15203
 20011.8   13965   14863
 20012   13959   14465
 20012.2   13954   14132
 20012.4   13946   13763
 20012.6   13931   13442
 20012.8   13959   13144
 20013   13963   12882
 20013.2   13964   12620
 20013.4   13921   12306
 20013.6   13933   12098
 20013.8   13953   11880
 20014   13933   11669
 20014.2   13902   11447
 20014.4   13909   11294
 20014.6   13882   11113
 20014.8   13891   10995
 20015   13948   10910
 20015.2   13958   10820
 20015.4   13945   10721
 20015.6   13928   10625
 20015.8   13920   10554
 20016   13921   10498
 20016.2   13922   10463
 20016.4   13909   10424
 20016.6   13893   10401
 20016.8   13870   10378
 20017   13875   10395
 20017.2   13884   10431
 20017.4   13884   10461
 20017.6   13882   10498
 20017.8   13855   10542
 20018   13872   10625
 20018.2   13883   10714
 20018.4   13858   10781
 20018.6   13845   10871
 20018.8   13860   10978
 20019   13843   11079
 20019.2   13812   11156
 20019.4   13816   11264
 20019.6   13827   11389
 20019.8   13862   11523
 20020   13841   11611
 20020.9   13833   11982
 20021.8   13812   12157
 20022.7   13793   12144
 20023.6   13760   11967
 20024.6   13724   11704
 20025.6   13743   11474
 20026.6   13686   11234
 20027.6   13760   11182
 20028.6   13719   11119
 20029.7   13670   11099
 20030.8   13637   11108
 20031.9   13659   11130
 20033   13648   11068
 20034.1   13667   10950
 20035.2   13567   10685
 20036.4   13552   10461
 20037.6   13479   10198
 20038.8   13552   10043
 20040   13484   9770
 20041.3   13462   9508
 20042.5   13457   9279
 20043.8   13416   9102
 20045.1   13383   9071
 20046.5   13337   9220
 20047.8   13271   9516
 20049.2   13219   9891
 20050.5   13236   10316
 20051.9   13191   10623
 20053.3   13219   10885
 20054.8   13179   10991
 20056.2   13007   10885
 20057.7   13095   10909
 20059.2   13042   10751
 20060.7   12969   10543
 20062.3   12975   10403
 20063.8   12966   10304
 20065.4   12820   10170
 20067   12837   10221
 20068.6   12803   10264
 20070.2   12784   10341
 20071.8   12752   10410
 20073.5   12758   10511
 20075.2   12735   10557
 20076.9   12685   10518
 20078.6   12728   10465
 20080.4   12544   10136
 20082.1   12513   9867
 20083.9   12644   9711
 20085.7   12650   9511
 20087.5   12621   9376
 20089.3   12653   9423
 20091.2   12561   9513
 20093.1   12547   9767
 20095   12642   10139
 20096.9   12645   10401
 20098.8   12678   10580
 20100.8   12688   10625
 20102.7   12705   10592
 20104.7   12713   10526
 20106.7   12845   10572
 20108.8   12906   10588
 20110.8   12873   10536
 20112.9   12886   10530
 20115   12855   10480
 20117.1   12915   10492
 20119.2   13101   10565
 20121.3   13228   10545
 20123.5   13318   10466
 20125.7   13245   10264
 20127.9   13319   10224
 20130.1   13367   10241
 20132.3   13556   10461
 20134.6   13575   10621
 20136.9   13605   10815
 20139.2   13652   11046
 20141.5   13666   11294
 20143.8   13717   11568
 20146.2   13611   11658
 20148.5   13629   11771
 20150.9   13652   11832
 20153.3   13667   11867
 20155.7   13677   11899
 20158.2   13653   11876
 20160.7   13674   11825
 20163.1   13628   11667
 20165.7   13578   11505
 20168.2   13624   11453
 20170.7   13593   11360
 20173.3   13594   11324
 20175.9   13583   11327
 20178.5   13563   11344
 20181.1   13510   11274
 20183.7   13458   11090
 20186.4   13447   10825
 20189   13491   10572
 20191.7   13466   10332
 20194.5   13532   10280
 20197.2   13438   10237
 20199.9   13490   10444
 20202.7   13416   10686
 20205.5   13332   11022
 20208.3   13275   11435
 20211.1   13317   11919
 20214   13224   12184
 20216.9   13322   12449
 20219.7   13227   12318
 20222.6   13172   12092
 20225.6   13135   11881
 20228.5   13163   11814
 20231.5   13202   11820
 20234.5   13173   11756
 20237.5   13109   11610
 20240.5   13089   11457
 20243.5   13067   11261
 20246.6   13043   11041
 20249.7   13092   10895
 20252.7   13081   10739
 20255.9   12971   10571
 20259   13031   10594
 20262.1   13053   10615
 20265.3   12989   10555
 20268.5   13040   10584
 20271.7   12880   10491
 20275   12914   10601
 20278.2   12824   10641
 20281.5   12961   10907
 20284.8   13111   11246
 20288.1   13005   11394
 20291.4   12955   11547
 20294.7   13209   11914
 20298.1   13165   12004
 20301.5   13266   12212
 20304.9   13354   12362
 20308.3   13326   12299
 20311.7   13352   12167
 20315.2   13346   11977
 20318.7   13386   11842
 20322.2   13303   11610
 20325.7   13329   11479
 20329.2   13299   11328
 20332.8   13337   11266
 20336.3   13315   11180
 20339.9   13263   11103
 20343.5   13297   11125
 20347.2   13308   11166
 20350.8   13252   11191
 20354.5   13178   11213
 20358.2   13120   11228
 20361.9   13150   11277
 20365.6   13092   11252
 20369.4   12985   11222
 20373.1   12907   11281
 20376.9   12852   11387
 20380.7   12785   11434
 20384.5   12733   11401
 20388.4   12500   11177
 20392.2   12447   11124
 20396.1   12295   10997
 20400   12174   10915
 20403.9   12063   10846
 20407.8   12020   10786
 20411.8   11744   10469
 20415.8   11707   10362
 20419.8   11572   10209
 20423.8   11568   10209
 20427.8   11516   10180
 20431.9   11391   10095
 20435.9   11344   10064
 20440   11289   9997
 20444.1   11220   9892
 20448.2   10935   9569
 20452.4   10547   9170
 20456.5   10521   9136
 20460.7   10512   9162
 20464.9   10643   9316
 20469.2   11281   9896
 20473.4   11423   10052
 20477.7   11859   10501
 20481.9   11756   10503
 20486.2   11925   10722
 20490.5   12298   11077
 20494.9   12497   11246
 20499.2   12511   11233
 20503.6   12548   11245
 20508   12354   11064
 20512.4   12086   10828
 20516.8   11865   10645
 20521.3   11611   10439
 20525.8   11549   10402
 20530.3   12081   10900
 20534.8   12075   10904
 20539.3   11985   10813
 20543.8   12171   10938
 20548.4   12150   10887
 20553   12108   10859
 20557.6   11865   10674
 20562.2   12013   10820
 20566.8   12068   10862
 20571.5   11963   10749
 20576.2   11829   10601
 20580.9   11874   10578
 20585.6   11810   10445
 20590.3   11541   10168
 20595.1   10918   9641
 20599.9   11849   10527
 20604.7   11753   10517
 20609.5   11352   10241
 20614.3   11417   10389
 20619.2   11361   10374
 20624   11162   10200
 20628.9   10806   9879
 20633.8   10703   9802
 20638.7   11343   10413
 20643.7   11234   10347
 20648.7   11226   10340
 20653.6   11438   10496
 20658.6   11388   10407
 20663.7   11851   10794
 20668.7   11828   10755
 20673.8   12186   11070
 20678.8   12091   10987
 20683.9   12081   10985
 20689.1   12287   11169
 20694.2   12242   11119
 20699.4   12235   11095
 20704.5   12072   10928
 20709.7   12066   10902
 20714.9   12063   10896
 20720.2   11859   10739
 20725.4   11710   10643
 20730.7   11663   10630
 20736   11507   10516
 20741.3   11133   10223
 20746.6   10800   9960
 20752   10342   9557
 20757.3   10156   9393
 20762.7   10533   9759
 20768.1   10367   9644
 20773.5   10266   9582
 20779   10130   9469
 20784.4   9787   9145
 20789.9   9676   9018
 20795.4   9862   9149
 20800.9   9649   8906
 20806.5   9892   9101
 20812   9800   9018
 20817.6   9522   8783
 20823.2   9260   8559
 20828.8   10055   9290
 20834.4   10077   9299
 20840.1   10316   9506
 20845.8   10650   9812
 20851.5   11179   10309
 20857.2   11230   10379
 20862.9   11188   10356
 20868.6   11062   10267
 20874.4   11096   10333
 20880.2   11185   10444
 20886   11279   10555
 20891.8   11324   10618
 20897.7   11140   10472
 20903.5   11094   10446
 20909.4   10932   10289
 20915.3   10625   9986
 20921.2   10539   9887
 20927.2   10386   9729
 20933.1   10320   9655
 20939.1   10495   9816
 20945.1   10467   9798
 20951.1   10380   9729
 20957.1   10407   9763
 20963.2   10051   9440
 20969.3   9855   9258
 20975.4   10091   9469