File: exp_xaslib/raw/V metal.xdi
#XDI/1.0  XASDataLibrary/1.0
# Column.1: energy eV
# Column.2: i0
# Column.3: itrans
# Mono.d_spacing: 3.134770
# Mono.name: generic Si(111)
# Beamline.name: APS 13-ID-E
# Element.symbol: V
# Element.edge: K
# Data.upload_date: 2020-05-17 07:41:55
# Data.submitted_by: Matt Newville
# Sample.name: V foil
# Sample.formula: V
# Sample.preparation: metal foil, Joe Wong box set
# Sample.notes: sample for 'V_foil.xdi', uploaded 2020-05-07 19:57:38
# Reference.mode: no reference spectra
# ///
#
#-----------------------
#   energy         i0            itrans
 5415   108327   88173
 5420   125815   103010
 5425   136142   112031
 5430   135701   112152
 5435   140857   116888
 5440   139832   116433
 5445   143142   119505
 5450   151538   126719
 5455   152676   127328
 5460   158045   128964
 5460.1   159002   129556
 5460.2   152389   123944
 5460.3   139810   113552
 5460.4   140214   113724
 5460.5   138852   112447
 5460.6   138066   111650
 5460.7   137074   110663
 5460.8   136261   109809
 5460.9   136288   109655
 5461   136097   109270
 5461.1   136367   109263
 5461.2   136646   109245
 5461.3   136422   108782
 5461.4   136381   108430
 5461.5   136724   108341
 5461.6   136414   107733
 5461.7   136548   107414
 5461.8   136587   107032
 5461.9   136193   106231
 5462   136532   105939
 5462.1   136092   104989
 5462.2   136509   104612
 5462.3   136586   103926
 5462.4   136425   102962
 5462.5   136843   102260
 5462.6   136759   101079
 5462.7   136885   99858
 5462.8   137075   98457
 5462.9   137301   96809
 5463   136828   94337
 5463.1   136162   91381
 5463.2   135998   88270
 5463.3   135948   84815
 5463.4   136234   81085
 5463.5   136258   76644
 5463.6   136002   71797
 5463.7   136459   67136
 5463.8   136366   62384
 5463.9   136451   58036
 5464   136687   54279
 5464.1   136376   51143
 5464.2   136361   48987
 5464.3   136329   47673
 5464.4   136371   47197
 5464.5   136306   47289
 5464.6   136604   47958
 5464.7   136423   48705
 5464.8   136408   49666
 5464.9   136203   50571
 5465   136406   51578
 5465.1   136326   52395
 5465.2   136210   53047
 5465.3   136027   53535
 5465.4   135883   53895
 5465.5   135744   54061
 5465.6   135695   54138
 5465.7   136039   54229
 5465.8   135844   53966
 5465.9   136251   53814
 5466   136376   53397
 5466.1   136068   52702
 5466.2   135438   51810
 5466.3   135605   51149
 5466.4   135373   50321
 5466.5   135126   49453
 5466.6   135553   48818
 5466.7   135388   47984
 5466.8   135762   47350
 5466.9   135363   46422
 5467   135470   45678
 5467.1   135100   44776
 5467.2   135393   44092
 5467.3   135287   43299
 5467.4   135328   42564
 5467.5   134800   41642
 5467.6   135028   41002
 5467.7   135135   40329
 5467.8   135090   39636
 5467.9   134944   38930
 5468   134944   38306
 5468.1   134228   37534
 5468.2   134425   37043
 5468.3   134531   36578
 5468.4   134492   36109
 5468.5   134367   35654
 5468.6   134132   35190
 5468.7   134315   34869
 5468.8   134570   34623
 5468.9   133933   34162
 5469   133955   33897
 5469.1   133880   33650
 5469.2   133315   33324
 5469.3   133809   33269
 5469.4   133929   33144
 5469.5   133702   32950
 5469.6   133948   32898
 5469.7   133295   32624
 5469.8   132921   32446
 5469.9   132413   32237
 5470   132302   32132
 5470.1   132589   32134
 5470.2   131903   31891
 5470.3   132094   31876
 5470.4   132115   31819
 5470.5   132316   31797
 5470.6   132220   31700
 5470.7   132229   31609
 5470.8   132124   31481
 5470.9   132432   31423
 5471   132580   31299
 5471.1   132408   31065
 5471.2   132557   30875
 5471.3   132472   30591
 5471.4   132155   30211
 5471.5   132275   29910
 5471.6   131551   29379
 5471.7   129436   28503
 5471.8   131531   28515
 5471.9   131567   28029
 5472   131797   27565
 5472.1   131588   26983
 5472.2   131410   26401
 5472.3   131559   25850
 5472.4   131365   25231
 5472.5   131359   24650
 5472.6   131521   24104
 5472.7   131327   23498
 5472.8   131453   22965
 5472.9   131417   22405
 5473   131561   21904
 5473.1   131236   21348
 5473.2   131168   20864
 5473.3   130824   20345
 5473.4   130949   19908
 5473.5   131091   19509
 5473.6   131251   19119
 5473.7   131293   18728
 5473.8   131325   18358
 5473.9   131162   17971
 5474   131140   17619
 5474.1   131171   17296
 5474.2   131347   17006
 5474.3   131513   16721
 5474.4   131499   16428
 5474.5   131557   16186
 5474.6   131241   15872
 5474.7   131095   15598
 5474.8   131253   15366
 5474.9   130681   15054
 5475   130616   14818
 5475.63   131349   13554
 5476.27   131128   12293
 5476.94   131686   11218
 5477.63   132103   10250
 5478.33   132657   9402
 5479.05   132281   8570
 5479.8   132991   7901
 5480.56   133598   7349
 5481.34   133195   6798
 5482.14   133575   6334
 5482.96   133413   6150
 5483.8   134225   6514
 5484.66   134661   7286
 5485.53   135178   8192
 5486.43   135469   8922
 5487.34   136026   9302
 5488.28   135727   9204
 5489.23   136319   8850
 5490.2   136470   8341
 5491.19   136620   7932
 5492.21   137547   7800
 5493.24   138141   7925
 5494.28   137747   8155
 5495.35   137626   8374
 5496.44   137896   8383
 5497.55   137703   8117
 5498.67   138037   7821
 5499.82   139598   7667
 5500.98   139477   7471
 5502.16   140429   7368
 5503.36   140392   7281
 5504.59   140192   7238
 5505.83   139810   7160
 5507.09   139863   7003
 5508.36   140161   6827
 5509.66   133208   6371
 5510.98   132928   6387
 5512.31   131451   6419
 5513.67   132088   6578
 5515.04   131903   6695
 5516.44   131730   6828
 5517.85   131437   6999
 5519.28   131930   7315
 5520.73   131971   7679
 5522.2   132572   8099
 5523.69   133782   8534
 5525.2   134747   8906
 5526.72   135623   9238
 5528.27   137295   9584
 5529.84   138011   9749
 5531.42   138844   9713
 5533.02   139784   9487
 5534.65   140462   9100
 5536.29   141461   8649
 5537.95   142370   8247
 5539.63   142423   8092
 5541.33   141618   8221
 5543.05   142037   8619
 5544.79   143569   9186
 5546.54   143964   9748
 5548.32   144343   10343
 5550.11   144990   10842
 5551.93   144230   10897
 5553.76   145415   10617
 5555.61   145841   9894
 5557.48   143689   8897
 5559.38   142362   8050
 5561.29   142511   7457
 5563.21   141396   6993
 5565.16   142033   6875
 5567.13   143274   7096
 5569.12   142743   7495
 5571.12   142389   8095
 5573.15   142436   8840
 5575.19   142936   9617
 5577.25   144077   10286
 5579.33   141667   10440
 5581.43   142534   10616
 5583.56   143853   10670
 5585.69   144251   10631
 5587.85   144692   10697
 5590.03   145919   10992
 5592.23   146168   11291
 5594.44   147655   11678
 5596.68   142109   11371
 5598.93   138683   11080
 5601.21   139360   11049
 5603.5   140744   11054
 5605.81   144109   11167
 5608.14   144000   10896
 5610.49   144949   10721
 5612.86   145948   10667
 5615.25   146424   10563
 5617.65   146840   10348
 5620.08   147016   10015
 5622.52   148943   9773
 5624.99   147992   9536
 5627.47   147366   9640
 5629.98   144946   9826
 5632.5   144407   10272
 5635.04   142178   10595
 5637.6   144716   11239
 5640.18   144021   11560
 5642.78   146026   11971
 5645.39   148098   12329
 5648.03   147273   12416
 5650.69   145324   12440
 5653.36   145159   12618
 5656.06   145628   12839
 5658.77   145286   12981
 5661.5   144892   13141
 5664.25   145927   13541
 5667.02   147478   13981
 5669.81   148142   14217
 5672.62   149213   14324
 5675.45   148534   14060
 5678.3   145560   13527
 5681.16   148266   13495
 5684.05   148107   13170
 5686.95   148859   12935
 5689.88   150273   12783
 5692.82   149068   12465
 5695.78   148350   12347
 5698.76   148881   12506
 5701.76   147453   12719
 5704.78   148587   13315
 5707.82   149934   13989
 5710.88   146624   14132
 5713.95   143647   14119
 5717.05   145098   14419
 5720.17   146028   14642
 5723.3   146817   14911
 5726.45   146713   15074
 5729.62   148601   15413
 5732.82   148942   15529
 5736.03   148576   15551
 5739.26   148298   15612
 5742.51   150199   16004
 5745.77   147224   15898
 5749.06   144669   15785
 5752.37   146581   16115
 5755.69   145098   16018
 5759.04   146938   16221
 5762.4   149911   16463
 5765.78   151908   16575
 5769.18   153556   16661
 5772.61   154370   16706
 5776.05   155278   16799
 5779.51   156865   17008
 5782.98   153079   16698
 5786.48   149995   16507
 5790   148594   16548
 5793.53   149348   16825
 5797.09   150570   17186
 5800.66   151183   17546
 5804.26   152537   18016
 5807.87   153991   18478
 5811.5   155185   18848
 5815.15   157150   19240
 5818.82   160126   19735
 5822.51   160843   19949
 5826.22   161469   20172
 5829.94   156071   19648
 5833.69   157545   20012
 5837.45   158642   20257
 5841.24   161972   20769
 5845.04   164389   21201
 5848.87   163610   21233
 5852.71   167623   21936
 5856.57   168541   22213
 5860.45   162708   21555
 5864.35   162231   21585
 5868.27   165145   22023
 5872.2   168890   22586
 5876.16   172100   23157
 5880.14   158470   21476
 5884.13   157696   21591
 5888.14   153498   21251
 5892.18   155180   21706
 5896.23   141263   19938
 5900.3   158474   22566
 5904.39   160508   23042
 5908.5   156429   22649
 5912.63   151316   22125
 5916.78   152543   22510
 5920.95   151302   22486
 5925.13   144163   21579
 5929.34   155820   23462
 5933.56   148220   22515
 5937.81   154387   23648
 5942.07   162665   25153
 5946.35   165107   25772
 5950.65   156668   24661
 5954.97   153376   24355
 5959.31   151634   24250
 5963.67   148014   23841
 5968.05   143194   23184
 5972.44   156719   25542
 5976.86   159521   26139
 5981.29   162526   26804
 5985.75   156289   25954
 5990.22   156087   26120
 5994.71   154724   26084
 5999.22   153688   26117
 6003.75   154532   26474
 6008.3   152804   26399
 6012.87   154739   26966
 6017.46   150888   26508
 6022.07   153280   27137
 6026.69   151544   27034
 6031.34   150986   27150
 6036   152236   27582
 6040.69   153619   28068
 6045.39   154840   28484
 6050.11   157002   29097
 6054.85   160001   29936
 6059.61   162567   30637
 6064.39   163058   30980
 6069.19   153157   29317
 6074.01   155234   29945
 6078.84   156502   30413
 6083.7   157844   30898
 6088.57   161344   31816
 6093.47   159821   31739
 6098.38   161034   32213
 6103.31   165623   33366
 6108.27   168869   34270
 6113.24   148591   30352
 6118.23   153008   31482
 6123.23   151142   31311
 6128.26   151940   31703
 6133.31   147689   31053
 6138.38   148087   31366
 6143.46   150173   32054
 6148.57   150833   32447
 6153.69   154472   33490
 6158.83   153620   33567
 6163.99   155729   34296
 6169.17   153500   34070
 6174.37   154123   34483
 6179.59   148435   33478
 6184.83   149244   33934
 6190.09   151257   34651
 6195.37   146294   33785
 6200.66   146941   34195
 6205.98   150328   35244
 6211.31   153625   36291
 6216.66   154523   36784
 6222.04   149460   35869
 6227.43   147957   35794
 6232.84   151568   36941
 6238.27   150587   36983
 6243.72   152098   37647
 6249.18   156879   39125
 6254.67   150024   37713
 6260.18   151995   38504
 6265.7   150578   38451
 6271.25   152916   39346
 6276.81   146017   37862
 6282.39   148243   38749
 6287.99   146410   38575
 6293.62   148675   39493
 6299.26   150997   40420
 6304.91   151730   40937
 6310.59   152613   41509
 6316.29   153072   41974
 6322.01   154717   42768
 6327.74   153466   42763
 6333.5   154152   43304
 6339.27   154581   43755
 6345.06   156556   44666
 6350.88   147499   42405
 6356.71   148312   42977
 6362.56   146128   42656
 6368.43   147935   43513
 6374.32   148463   43945
 6380.22   149165   44541
 6386.15   144169   43401
 6392.1   141154   42818
 6398.06   139903   42758
 6404.05   141607   43623
 6410.05   143576   44559
 6416.07   146657   45858
 6422.12   143137   45119
 6428.18   146019   46376
 6434.26   147381   47162
 6440.36   147547   47593